Folder: PWSpy/thinFilmData

Note: README.md
# PWSpy
A Python module dedicated to analysis of Partial Wave Spectroscopic Microscopy data.

## Statement of need
Any analysis of raw data generated by PWS and related imaging modes requires loading image data and metadata from a large variety of file formats, performing complex pre-processing steps before any of the real analysis begins. Any minor variations in how this pre-processing is performed can result in major differences in final analysis results. PWSpy provides an object-oriented interface for performing all common file I/O and analysis tasks related to PWS. This allows users to write succinct and readable scripts/software that function identically regardless of the file format of the raw data and which are guaranteed to perform all basic operations properly. The analysis steps described in previous publications ([1](https://www.ncbi.nlm.nih.gov/pmc/articles/PMC5348632/), [2](https://www.nature.com/articles/s41467-019-09717-6), [3](https://www.osapublishing.org/ol/viewmedia.cfm?uri=ol-45-17-4810&seq=0&html=true)) can be found written out clearly in Python under the `analysis` package. Classes providing uniform file handling for the current file format used by the [PWS Acquisition plugin for Micro-Manager](https://github.com/nanthony21/PWSAcquisition) as well as all known legacy formats can be found under the `dataTypes` package.  This library provides support for the backend code of [PWSpy_GUI](https://github.com/nanthony21/pwspy_gui).

## Documentation
API documentation is hosted online at [ReadTheDocs](https://pwspy.readthedocs.io/en/dev/)

## Installation
`PWSpy` is most easily installed with the [Conda](https://docs.conda.io/projects/conda/en/latest/user-guide/install/download.html) package manager.
It is advisable to install `PWSpy` into it's own Conda environment to avoid dependency conflicts. 
Create a new environment with the command: `conda create -n {environmentName} python=3.7`. You can then make the new environment active in your terminal with `conda activate {environmentName}`.

More information [here](https://docs.conda.io/projects/conda/en/latest/user-guide/tasks/manage-environments.html).

#### Installing from Anaconda Cloud (recommended)
`PWSpy` is published online to the "backmanlab" Anaconda Cloud channel. It can be installed from Conda with the command `conda install -c conda-forge -c backmanlab pwspy` 

#### Installing with Pip
`PWSpy` is available on PyPi and can be installed using Pip, however some of its dependencies may not automatically install properly. Installing via `conda` is the easiest method.

## Building from source and distributing
For information on creating a Conda package yourself see [here](docs/building.md).

## Contributing
Read the [contributing section](CONTRIBUTING.md) in the documentation if you want to help us improve and further develop PWSpy!

File: Reflectance-calcs.txt
Wavelength (nm)	Reflectance
200	0.4605309
203	0.5879694
206	0.7089651
209	0.6863681
212	0.5129568
215	0.4942991
218	0.6684892
221	0.7029931
224	0.6022753
227	0.4368918
230	0.5249843
233	0.6514405
236	0.6719586
239	0.5993841
242	0.4593823
245	0.4436109
248	0.592248
251	0.69011
254	0.709758
257	0.6654997
260	0.5672942
263	0.4999761
266	0.5786077
269	0.6875526
272	0.7422573
275	0.7452892
278	0.7025089
281	0.6129306
284	0.5076972
287	0.4802669
290	0.5383814
293	0.6007153
296	0.6331103
299	0.6332259
302	0.6013453
305	0.5359435
308	0.4411005
311	0.3441089
314	0.299837
317	0.3362945
320	0.4164634
323	0.4918777
326	0.5426844
329	0.5661976
332	0.5644124
335	0.5384976
338	0.4896922
341	0.4217007
344	0.3476661
347	0.2939008
350	0.287869
353	0.3331672
356	0.4069766
359	0.4816553
362	0.5398078
365	0.5748927
368	0.5862539
371	0.5768567
374	0.5484104
377	0.5024759
380	0.4423361
383	0.3725544
386	0.3025865
389	0.2457524
392	0.2155261
395	0.217637
398	0.2468411
401	0.2908645
404	0.3379218
407	0.3800995
410	0.4135872
413	0.4369453
416	0.4499158
419	0.4528056
422	0.4459759
425	0.4297447
428	0.4046699
431	0.3714063
434	0.3312481
437	0.2863141
440	0.2397294
443	0.1970884
446	0.1629043
449	0.1419785
452	0.1369618
455	0.1476572
458	0.1711044
461	0.2028227
464	0.2380984
467	0.2735793
470	0.3066083
473	0.3347826
476	0.3581553
479	0.3755029
482	0.387096
485	0.3931128
488	0.3936728
491	0.3889481
494	0.3791842
497	0.3646276
500	0.3456031
503	0.3225557
506	0.2960795
509	0.2667857
512	0.2356671
515	0.2044914
518	0.1749316
521	0.148495
524	0.1269176
527	0.111857
530	0.1042146
533	0.1042215
536	0.111538
539	0.125284
542	0.1440666
545	0.1662324
548	0.1903033
551	0.2152243
554	0.2396556
557	0.2624743
560	0.2835139
563	0.3023434
566	0.318478
569	0.3318886
572	0.3426348
575	0.350609
578	0.3558598
581	0.3584296
584	0.3584258
587	0.3559772
590	0.3511094
593	0.3439234
596	0.3344963
599	0.3229726
602	0.3095408
605	0.2943897
608	0.2775275
611	0.2593635
614	0.2402604
617	0.2204119
620	0.2002258
623	0.1802036
626	0.1609075
629	0.142906
632	0.1265844
635	0.1124253
638	0.1007742
641	0.0920871
644	0.0865581
647	0.0842682
650	0.0852492
653	0.0892801
656	0.096145
659	0.1055132
662	0.1170249
665	0.1302715
668	0.1446396
671	0.1598551
674	0.1755343
677	0.1913515
680	0.2070329
683	0.2224702
686	0.237244
689	0.2511474
692	0.264146
695	0.2761517
698	0.2870938
701	0.2969326
704	0.3056601
707	0.3132508
710	0.3196843
713	0.3249781
716	0.3292099
719	0.3323748
722	0.3344617
725	0.3354661
728	0.3354042
731	0.3343455
734	0.3323236
737	0.3293647
740	0.3254472
743	0.3206161
746	0.3149137
749	0.3083705
752	0.3010426
755	0.2930066
758	0.2842943
761	0.2749614
764	0.2650817
767	0.2546862
770	0.2438393
773	0.2325025
776	0.2208433
779	0.2089416
782	0.1969469
785	0.1849393
788	0.173008
791	0.1612797
794	0.1498685
797	0.1388598
800	0.1283781
803	0.1185149
806	0.109419
809	0.1012065
812	0.0939647
815	0.0877425
818	0.082537
821	0.0784147
824	0.0753996
827	0.0735379
830	0.0728363
833	0.0732475
836	0.0747424
839	0.0772744
842	0.080808
845	0.0852723
848	0.0905809
851	0.0966508
854	0.1033951
857	0.1107252
860	0.1185522
863	0.1267305
866	0.1352301
869	0.143971
872	0.1529187
875	0.1619827
878	0.1710767
881	0.1801202
884	0.1890399
887	0.1978589
890	0.206541
893	0.2150139
896	0.223245
899	0.2312064
902	0.2389076
905	0.2463088
908	0.2533759
911	0.2600809
914	0.2664019
917	0.2723612
920	0.2779534
923	0.2832084
926	0.2880852
929	0.2925831
932	0.2966845
935	0.3004041
938	0.3037538
941	0.3067366
944	0.3093564
947	0.3116171
950	0.3135236
953	0.3150908
956	0.3163348
959	0.3172435
962	0.3178125
965	0.3180525
968	0.3179712
971	0.3175746
974	0.3168688
977	0.3158601
980	0.3145547
983	0.3129483
986	0.3110544
989	0.3088796
992	0.3064417
995	0.3037451
998	0.3007923
1000	0.2986849